File: sample/000_2_2.txt
/////////////////////////////////////////////////////////////////////////////////
/// Profile Data Ascii Dump (XRD)                                             ///
/////////////////////////////////////////////////////////////////////////////////

  Group     : Standard
  Data      : 000_2_2
  File Name : 000_2_2.RAW

# Profile Datafile
          comment             =
          date & time         = 25-07-30 14:24:01

# Measurement Condition
    X-ray tube
          target              = Cu
          voltage             = 40.0 (kV)
          current             = 30.0 (mA)
    Slits
          divergence slit     = 1.00000 (deg)
          scatter slit        = 1.00000 (deg)
          receiving slit      = 0.30000 (mm)
    Scanning
          drive axis          = Theta-2Theta
          scan range          =   10.000 -   70.000
          scan mode           = Continuous Scan
          scan speed          =   3.0000 (deg/min)
          sampling pitch      =   0.0200 (deg)
          preset time         =   0.40 (sec)

# Data      [ Total No. = 3001 ]
  <2Theta>   <   I   >
    10.0000       492
    10.0600       498
    10.1200       498
    10.1800       446
    10.2400       482
    10.3000       486
    10.3600       432
    10.4200       438
    10.4800       404
    10.5400       398
    10.6000       452
    10.6600       416
    10.7200       448
    10.7800       396
    10.8400       458
    10.9000       372
    10.9600       418
    11.0200       460
    11.0800       422
    11.1400       430
    11.2000       434
    11.2600       390
    11.3200       398
    11.3800       426
    11.4400       406
    11.5000       408
    11.5600       376
    11.6200       428
    11.6800       388
    11.7400       448
    11.8000       388
    11.8600       422
    11.9200       410
    11.9800       418
    12.0400       440
    12.1000       398
    12.1600       430
    12.2200       376
    12.2800       384
    12.3400       414
    12.4000       426
    12.4600       406
    12.5200       412
    12.5800       374
    12.6400       378
    12.7000       442
    12.7600       402
    12.8200       386
    12.8800       404
    12.9400       408
    13.0000       392
    13.0600       374
    13.1200       402
    13.1800       428
    13.2400       458
    13.3000       448
    13.3600       414
    13.4200       420
    13.4800       424
    13.5400       386
    13.6000       436
    13.6600       402
    13.7200       388
    13.7800       438
    13.8400       394
    13.9000       390
    13.9600       400
    14.0200       408
    14.0800       436
    14.1400       378
    14.2000       422
    14.2600       458
    14.3200       436
    14.3800       424
    14.4400       432
    14.5000       454
    14.5600       490
    14.6200       426
    14.6800       444
    14.7400       434
    14.8000       488
    14.8600       406
    14.9200       450
    14.9800       434
    15.0400       450
    15.1000       420
    15.1600       434
    15.2200       434
    15.2800       442
    15.3400       426
    15.4000       446
    15.4600       424
    15.5200       442
    15.5800       490
    15.6400       448
    15.7000       478
    15.7600       458
    15.8200       442
    15.8800       490
    15.9400       462
    16.0000       440
    16.0600       462
    16.1200       444
    16.1800       410
    16.2400       442
    16.3000       464
    16.3600       432
    16.4200       464
    16.4800       476
    16.5400       444
    16.6000       468
    16.6600       470
    16.7200       480
    16.7800       466
    16.8400       484
    16.9000       478
    16.9600       464
    17.0200       470
    17.0800       524
    17.1400       464
    17.2000       464
    17.2600       470
    17.3200       484
    17.3800       526
    17.4400       510
    17.5000       500
    17.5600       470
    17.6200       494
    17.6800       536
    17.7400       456
    17.8000       508
    17.8600       498
    17.9200       480
    17.9800       526
    18.0400       478
    18.1000       486
    18.1600       508
    18.2200       500
    18.2800       514
    18.3400       490
    18.4000       516
    18.4600       550
    18.5200       548
    18.5800       478
    18.6400       532
    18.7000       520
    18.7600       548
    18.8200       502
    18.8800       504
    18.9400       530
    19.0000       522
    19.0600       532
    19.1200       514
    19.1800       528
    19.2400       502
    19.3000       522
    19.3600       556
    19.4200       544
    19.4800       508
    19.5400       564
    19.6000       506
    19.6600       544
    19.7200       558
    19.7800       514
    19.8400       532
    19.9000       566
    19.9600       510
    20.0200       534
    20.0800       566
    20.1400       566
    20.2000       526
    20.2600       600
    20.3200       572
    20.3800       544
    20.4400       562
    20.5000       544
    20.5600       564
    20.6200       592
    20.6800       548
    20.7400       598
    20.8000       588
    20.8600       596
    20.9200       606
    20.9800       554
    21.0400       562
    21.1000       568
    21.1600       550
    21.2200       600
    21.2800       600
    21.3400       604
    21.4000       590
    21.4600       572
    21.5200       568
    21.5800       598
    21.6400       588
    21.7000       602
    21.7600       586
    21.8200       622
    21.8800       628
    21.9400       564
    22.0000       578
    22.0600       562
    22.1200       558
    22.1800       602
    22.2400       616
    22.3000       662
    22.3600       630
    22.4200       616
    22.4800       558
    22.5400       608
    22.6000       620
    22.6600       618
    22.7200       594
    22.7800       646
    22.8400       598
    22.9000       604
    22.9600       596
    23.0200       620
    23.0800       628
    23.1400       662
    23.2000       648
    23.2600       614
    23.3200       610
    23.3800       678
    23.4400       632
    23.5000       642
    23.5600       644
    23.6200       636
    23.6800       648
    23.7400       630
    23.8000       688
    23.8600       654
    23.9200       610
    23.9800       622
    24.0400       656
    24.1000       656
    24.1600       632
    24.2200       676
    24.2800       674
    24.3400       622
    24.4000       652
    24.4600       656
    24.5200       692
    24.5800       638
    24.6400       698
    24.7000       644
    24.7600       652
    24.8200       614
    24.8800       724
    24.9400       646
    25.0000       678
    25.0600       636
    25.1200       684
    25.1800       678
    25.2400       596
    25.3000       652
    25.3600       596
    25.4200       638
    25.4800       662
    25.5400       674
    25.6000       626
    25.6600       678
    25.7200       644
    25.7800       656
    25.8400       688
    25.9000       642
    25.9600       658
    26.0200       682
    26.0800       726
    26.1400       654
    26.2000       650
    26.2600       650
    26.3200       682
    26.3800       728
    26.4400       680
    26.5000       692
    26.5600       680
    26.6200       634
    26.6800       676
    26.7400       668
    26.8000       670
    26.8600       692
    26.9200       676
    26.9800       674
    27.0400       694
    27.1000       678
    27.1600       710
    27.2200       724
    27.2800       694
    27.3400       690
    27.4000       634
    27.4600       656
    27.5200       702
    27.5800       706
    27.6400       648
    27.7000       664
    27.7600       680
    27.8200       646
    27.8800       702
    27.9400       704
    28.0000       748
    28.0600       702
    28.1200       742
    28.1800       694
    28.2400       742
    28.3000       834
    28.3600       874
    28.4200      1012
    28.4800      1066
    28.5400      1214
    28.6000      1254
    28.6600      1208
    28.7200      1092
    28.7800      1016
    28.8400       870
    28.9000       878
    28.9600       752
    29.0200       734
    29.0800       736
    29.1400       790
    29.2000       708
    29.2600       756
    29.3200       696
    29.3800       734
    29.4400       702
    29.5000       726
    29.5600       688
    29.6200       694
    29.6800       708
    29.7400       706
    29.8000       714
    29.8600       746
    29.9200       724
    29.9800       670
    30.0400       676
    30.1000       674
    30.1600       700
    30.2200       698
    30.2800       700
    30.3400       720
    30.4000       686
    30.4600       680
    30.5200       734
    30.5800       696
    30.6400       714
    30.7000       640
    30.7600       670
    30.8200       686
    30.8800       676
    30.9400       648
    31.0000       700
    31.0600       660
    31.1200       708
    31.1800       716
    31.2400       684
    31.3000       708
    31.3600       682
    31.4200       724
    31.4800       668
    31.5400       688
    31.6000       678
    31.6600       674
    31.7200       678
    31.7800       692
    31.8400       678
    31.9000       692
    31.9600       694
    32.0200       646
    32.0800       674
    32.1400       648
    32.2000       694
    32.2600       664
    32.3200       718
    32.3800       674
    32.4400       672
    32.5000       666
    32.5600       704
    32.6200       660
    32.6800       684
    32.7400       674
    32.8000       666
    32.8600       628
    32.9200       684
    32.9800       702
    33.0400       694
    33.1000       692
    33.1600       714
    33.2200       674
    33.2800       680
    33.3400       650
    33.4000       700
    33.4600       722
    33.5200       722
    33.5800       626
    33.6400       652
    33.7000       682
    33.7600       700
    33.8200       660
    33.8800       718
    33.9400       720
    34.0000       682
    34.0600       692
    34.1200       688
    34.1800       680
    34.2400       702
    34.3000       702
    34.3600       652
    34.4200       638
    34.4800       694
    34.5400       684
    34.6000       704
    34.6600       700
    34.7200       672
    34.7800       702
    34.8400       682
    34.9000       694
    34.9600       746
    35.0200       732
    35.0800       672
    35.1400       680
    35.2000       662
    35.2600       602
    35.3200       696
    35.3800       734
    35.4400       708
    35.5000       678
    35.5600       664
    35.6200       694
    35.6800       710
    35.7400       718
    35.8000       732
    35.8600       658
    35.9200       648
    35.9800       694
    36.0400       694
    36.1000       676
    36.1600       702
    36.2200       696
    36.2800       620
    36.3400       684
    36.4000       742
    36.4600       722
    36.5200       656
    36.5800       680
    36.6400       726
    36.7000       684
    36.7600       698
    36.8200       672
    36.8800       736
    36.9400       700
    37.0000       674
    37.0600       694
    37.1200       740
    37.1800       808
    37.2400       830
    37.3000       958
    37.3600       932
    37.4200       960
    37.4800       818
    37.5400       792
    37.6000       714
    37.6600       746
    37.7200       676
    37.7800       690
    37.8400       676
    37.9000       706
    37.9600       678
    38.0200       664
    38.0800       696
    38.1400       686
    38.2000       690
    38.2600       722
    38.3200       714
    38.3800       712
    38.4400       704
    38.5000       708
    38.5600       668
    38.6200       728
    38.6800       682
    38.7400       710
    38.8000       686
    38.8600       680
    38.9200       680
    38.9800       694
    39.0400       690
    39.1000       674
    39.1600       678
    39.2200       718
    39.2800       734
    39.3400       704
    39.4000       696
    39.4600       692
    39.5200       718
    39.5800       672
    39.6400       696
    39.7000       644
    39.7600       756
    39.8200       650
    39.8800       704
    39.9400       724
    40.0000       724
    40.0600       718
    40.1200       738
    40.1800       684
    40.2400       728
    40.3000       676
    40.3600       696
    40.4200       748
    40.4800       738
    40.5400       766
    40.6000       706
    40.6600       710
    40.7200       752
    40.7800       740
    40.8400       762
    40.9000       742
    40.9600       806
    41.0200       814
    41.0800       730
    41.1400       712
    41.2000       760
    41.2600       726
    41.3200       746
    41.3800       682
    41.4400       746
    41.5000       722
    41.5600       674
    41.6200       768
    41.6800       786
    41.7400       708
    41.8000       694
    41.8600       726
    41.9200       684
    41.9800       704
    42.0400       732
    42.1000       706
    42.1600       744
    42.2200       710
    42.2800       702
    42.3400       690
    42.4000       736
    42.4600       746
    42.5200       770
    42.5800       762
    42.6400       760
    42.7000       826
    42.7600       854
    42.8200       824
    42.8800       782
    42.9400       790
    43.0000       762
    43.0600       690
    43.1200       760
    43.1800       718
    43.2400       726
    43.3000       774
    43.3600       782
    43.4200       734
    43.4800       694
    43.5400       670
    43.6000       668
    43.6600       746
    43.7200       746
    43.7800       708
    43.8400       734
    43.9000       698
    43.9600       756
    44.0200       740
    44.0800       730
    44.1400       720
    44.2000       760
    44.2600       718
    44.3200       754
    44.3800       778
    44.4400       738
    44.5000       714
    44.5600       724
    44.6200       730
    44.6800       718
    44.7400       718
    44.8000       728
    44.8600       746
    44.9200       764
    44.9800       704
    45.0400       792
    45.1000       756
    45.1600       762
    45.2200       748
    45.2800       734
    45.3400       776
    45.4000       738
    45.4600       756
    45.5200       768
    45.5800       768
    45.6400       764
    45.7000       748
    45.7600       764
    45.8200       774
    45.8800       806
    45.9400       694
    46.0000       760
    46.0600       772
    46.1200       768
    46.1800       732
    46.2400       808
    46.3000       822
    46.3600       728
    46.4200       738
    46.4800       764
    46.5400       730
    46.6000       776
    46.6600       732
    46.7200       784
    46.7800       804
    46.8400       744
    46.9000       736
    46.9600       752
    47.0200       720
    47.0800       766
    47.1400       784
    47.2000       786
    47.2600       742
    47.3200       762
    47.3800       750
    47.4400       744
    47.5000       722
    47.5600       800
    47.6200       730
    47.6800       822
    47.7400       778
    47.8000       772
    47.8600       762
    47.9200       762
    47.9800       758
    48.0400       800
    48.1000       774
    48.1600       798
    48.2200       728
    48.2800       776
    48.3400       754
    48.4000       736
    48.4600       832
    48.5200       766
    48.5800       738
    48.6400       786
    48.7000       752
    48.7600       752
    48.8200       754
    48.8800       798
    48.9400       802
    49.0000       770
    49.0600       734
    49.1200       766
    49.1800       752
    49.2400       766
    49.3000       716
    49.3600       742
    49.4200       736
    49.4800       764
    49.5400       764
    49.6000       788
    49.6600       810
    49.7200       744
    49.7800       732
    49.8400       758
    49.9000       770
    49.9600       810
    50.0200       736
    50.0800       782
    50.1400       756
    50.2000       750
    50.2600       802
    50.3200       774
    50.3800       764
    50.4400       754
    50.5000       774
    50.5600       770
    50.6200       774
    50.6800       784
    50.7400       770
    50.8000       790
    50.8600       826
    50.9200       740
    50.9800       746
    51.0400       770
    51.1000       762
    51.1600       830
    51.2200       802
    51.2800       766
    51.3400       780
    51.4000       804
    51.4600       854
    51.5200       778
    51.5800       804
    51.6400       790
    51.7000       810
    51.7600       716
    51.8200       766
    51.8800       802
    51.9400       772
    52.0000       804
    52.0600       806
    52.1200       766
    52.1800       844
    52.2400       760
    52.3000       780
    52.3600       760
    52.4200       754
    52.4800       764
    52.5400       832
    52.6000       784
    52.6600       742
    52.7200       838
    52.7800       782
    52.8400       762
    52.9000       806
    52.9600       812
    53.0200       798
    53.0800       784
    53.1400       780
    53.2000       804
    53.2600       828
    53.3200       798
    53.3800       814
    53.4400       746
    53.5000       802
    53.5600       780
    53.6200       766
    53.6800       826
    53.7400       826
    53.8000       796
    53.8600       776
    53.9200       790
    53.9800       762
    54.0400       784
    54.1000       786
    54.1600       766
    54.2200       776
    54.2800       836
    54.3400       780
    54.4000       824
    54.4600       820
    54.5200       788
    54.5800       778
    54.6400       794
    54.7000       832
    54.7600       800
    54.8200       798
    54.8800       822
    54.9400       832
    55.0000       800
    55.0600       840
    55.1200       820
    55.1800       796
    55.2400       796
    55.3000       782
    55.3600       830
    55.4200       766
    55.4800       796
    55.5400       808
    55.6000       802
    55.6600       778
    55.7200       826
    55.7800       816
    55.8400       736
    55.9000       864
    55.9600       846
    56.0200       864
    56.0800       824
    56.1400       816
    56.2000       866
    56.2600       836
    56.3200       988
    56.3800       914
    56.4400       994
    56.5000      1072
    56.5600      1124
    56.6200      1080
    56.6800      1084
    56.7400      1046
    56.8000      1002
    56.8600      1000
    56.9200       896
    56.9800       926
    57.0400       878
    57.1000       850
    57.1600       870
    57.2200       812
    57.2800       796
    57.3400       838
    57.4000       872
    57.4600       824
    57.5200       816
    57.5800       822
    57.6400       850
    57.7000       866
    57.7600       842
    57.8200       836
    57.8800       818
    57.9400       804
    58.0000       820
    58.0600       816
    58.1200       782
    58.1800       856
    58.2400       850
    58.3000       848
    58.3600       838
    58.4200       838
    58.4800       810
    58.5400       838
    58.6000       822
    58.6600       824
    58.7200       866
    58.7800       916
    58.8400       842
    58.9000       874
    58.9600       884
    59.0200       894
    59.0800       912
    59.1400       914
    59.2000       900
    59.2600       880
    59.3200       870
    59.3800       902
    59.4400       866
    59.5000       856
    59.5600       946
    59.6200       826
    59.6800       818
    59.7400       796
    59.8000       850
    59.8600       796
    59.9200       832
    59.9800       890
    60.0400       816
    60.1000       816
    60.1600       820
    60.2200       830
    60.2800       862
    60.3400       806
    60.4000       846
    60.4600       868
    60.5200       784
    60.5800       826
    60.6400       774
    60.7000       794
    60.7600       824
    60.8200       822
    60.8800       854
    60.9400       802
    61.0000       842
    61.0600       778
    61.1200       782
    61.1800       780
    61.2400       852
    61.3000       790
    61.3600       800
    61.4200       834
    61.4800       798
    61.5400       834
    61.6000       796
    61.6600       778
    61.7200       878
    61.7800       804
    61.8400       820
    61.9000       850
    61.9600       804
    62.0200       814
    62.0800       842
    62.1400       774
    62.2000       786
    62.2600       832
    62.3200       812
    62.3800       768
    62.4400       824
    62.5000       844
    62.5600       808
    62.6200       812
    62.6800       840
    62.7400       806
    62.8000       762
    62.8600       800
    62.9200       780
    62.9800       866
    63.0400       806
    63.1000       820
    63.1600       822
    63.2200       788
    63.2800       796
    63.3400       844
    63.4000       788
    63.4600       868
    63.5200       846
    63.5800       848
    63.6400       812
    63.7000       766
    63.7600       788
    63.8200       816
    63.8800       804
    63.9400       776
    64.0000       864
    64.0600       818
    64.1200       848
    64.1800       766
    64.2400       836
    64.3000       838
    64.3600       880
    64.4200       852
    64.4800       846
    64.5400       856
    64.6000       824
    64.6600       826
    64.7200       848
    64.7800       804
    64.8400       852
    64.9000       872
    64.9600       870
    65.0200       794
    65.0800       832
    65.1400       798
    65.2000       864
    65.2600       796
    65.3200       840
    65.3800       758
    65.4400       836
    65.5000       846
    65.5600       814
    65.6200       846
    65.6800       796
    65.7400       828
    65.8000       834
    65.8600       822
    65.9200       800
    65.9800       878
    66.0400       810
    66.1000       806
    66.1600       842
    66.2200       830
    66.2800       792
    66.3400       878
    66.4000       804
    66.4600       806
    66.5200       780
    66.5800       862
    66.6400       802
    66.7000       804
    66.7600       840
    66.8200       862
    66.8800       904
    66.9400       806
    67.0000       816
    67.0600       806
    67.1200       922
    67.1800       796
    67.2400       826
    67.3000       852
    67.3600       840
    67.4200       864
    67.4800       860
    67.5400       874
    67.6000       860
    67.6600       854
    67.7200       814
    67.7800       822
    67.8400       792
    67.9000       850
    67.9600       800
    68.0200       868
    68.0800       802
    68.1400       820
    68.2000       848
    68.2600       830
    68.3200       798
    68.3800       824
    68.4400       770
    68.5000       808
    68.5600       832
    68.6200       790
    68.6800       786
    68.7400       848
    68.8000       816
    68.8600       842
    68.9200       844
    68.9800       868
    69.0400       776
    69.1000       818
    69.1600       812
    69.2200       826
    69.2800       814
    69.3400       764
    69.4000       802
    69.4600       844
    69.5200       810
    69.5800       794
    69.6400       808
    69.7000       802
    69.7600       816
    69.8200       832
    69.8800       794
    69.9400       874
    70.0000       792