File: sample/20251203 nmo.txt
/////////////////////////////////////////////////////////////////////////////////
/// Profile Data Ascii Dump (XRD)                                             ///
/////////////////////////////////////////////////////////////////////////////////

  Group     : Standard
  Data      : nmo
  File Name : nmo.RAW

# Profile Datafile
          comment             =
          date & time         = 25-12-03 13:18:58

# Measurement Condition
    X-ray tube
          target              = Cu
          voltage             = 40.0 (kV)
          current             = 30.0 (mA)
    Slits
          divergence slit     = 1.00000 (deg)
          scatter slit        = 1.00000 (deg)
          receiving slit      = 0.30000 (mm)
    Scanning
          drive axis          = Theta-2Theta
          scan range          =   10.000 -   70.000
          scan mode           = Continuous Scan
          scan speed          =   3.0000 (deg/min)
          sampling pitch      =   0.0200 (deg)
          preset time         =   0.40 (sec)

# Data      [ Total No. = 3001 ]
  <2Theta>   <   I   >
    10.0000       466
    10.0600       524
    10.1200       464
    10.1800       506
    10.2400       454
    10.3000       498
    10.3600       456
    10.4200       480
    10.4800       418
    10.5400       444
    10.6000       424
    10.6600       450
    10.7200       428
    10.7800       470
    10.8400       420
    10.9000       450
    10.9600       430
    11.0200       414
    11.0800       408
    11.1400       392
    11.2000       484
    11.2600       478
    11.3200       442
    11.3800       436
    11.4400       442
    11.5000       458
    11.5600       450
    11.6200       432
    11.6800       452
    11.7400       480
    11.8000       450
    11.8600       474
    11.9200       474
    11.9800       488
    12.0400       460
    12.1000       584
    12.1600       498
    12.2200       516
    12.2800       520
    12.3400       552
    12.4000       558
    12.4600       508
    12.5200       534
    12.5800       548
    12.6400       568
    12.7000       454
    12.7600       484
    12.8200       492
    12.8800       500
    12.9400       478
    13.0000       506
    13.0600       460
    13.1200       510
    13.1800       456
    13.2400       460
    13.3000       476
    13.3600       418
    13.4200       452
    13.4800       474
    13.5400       492
    13.6000       504
    13.6600       438
    13.7200       446
    13.7800       444
    13.8400       426
    13.9000       434
    13.9600       460
    14.0200       438
    14.0800       460
    14.1400       414
    14.2000       438
    14.2600       452
    14.3200       460
    14.3800       398
    14.4400       452
    14.5000       410
    14.5600       440
    14.6200       406
    14.6800       412
    14.7400       474
    14.8000       466
    14.8600       446
    14.9200       458
    14.9800       466
    15.0400       394
    15.1000       420
    15.1600       448
    15.2200       456
    15.2800       452
    15.3400       428
    15.4000       460
    15.4600       426
    15.5200       470
    15.5800       470
    15.6400       448
    15.7000       412
    15.7600       424
    15.8200       480
    15.8800       484
    15.9400       428
    16.0000       454
    16.0600       480
    16.1200       482
    16.1800       432
    16.2400       468
    16.3000       478
    16.3600       506
    16.4200       462
    16.4800       452
    16.5400       472
    16.6000       418
    16.6600       460
    16.7200       470
    16.7800       460
    16.8400       462
    16.9000       470
    16.9600       476
    17.0200       456
    17.0800       488
    17.1400       500
    17.2000       434
    17.2600       480
    17.3200       474
    17.3800       474
    17.4400       482
    17.5000       442
    17.5600       498
    17.6200       466
    17.6800       488
    17.7400       492
    17.8000       538
    17.8600       460
    17.9200       490
    17.9800       452
    18.0400       484
    18.1000       482
    18.1600       466
    18.2200       442
    18.2800       498
    18.3400       504
    18.4000       462
    18.4600       514
    18.5200       504
    18.5800       500
    18.6400       470
    18.7000       456
    18.7600       488
    18.8200       492
    18.8800       500
    18.9400       468
    19.0000       462
    19.0600       494
    19.1200       484
    19.1800       512
    19.2400       510
    19.3000       494
    19.3600       534
    19.4200       538
    19.4800       522
    19.5400       482
    19.6000       516
    19.6600       516
    19.7200       560
    19.7800       488
    19.8400       542
    19.9000       496
    19.9600       544
    20.0200       552
    20.0800       518
    20.1400       524
    20.2000       558
    20.2600       462
    20.3200       524
    20.3800       482
    20.4400       518
    20.5000       556
    20.5600       558
    20.6200       530
    20.6800       528
    20.7400       500
    20.8000       518
    20.8600       592
    20.9200       520
    20.9800       530
    21.0400       504
    21.1000       542
    21.1600       560
    21.2200       538
    21.2800       546
    21.3400       536
    21.4000       516
    21.4600       596
    21.5200       528
    21.5800       536
    21.6400       554
    21.7000       514
    21.7600       566
    21.8200       562
    21.8800       568
    21.9400       526
    22.0000       522
    22.0600       614
    22.1200       550
    22.1800       570
    22.2400       552
    22.3000       540
    22.3600       568
    22.4200       512
    22.4800       622
    22.5400       548
    22.6000       580
    22.6600       540
    22.7200       536
    22.7800       602
    22.8400       548
    22.9000       570
    22.9600       602
    23.0200       558
    23.0800       554
    23.1400       600
    23.2000       596
    23.2600       556
    23.3200       564
    23.3800       574
    23.4400       614
    23.5000       550
    23.5600       560
    23.6200       552
    23.6800       600
    23.7400       592
    23.8000       568
    23.8600       590
    23.9200       560
    23.9800       612
    24.0400       598
    24.1000       574
    24.1600       544
    24.2200       586
    24.2800       558
    24.3400       564
    24.4000       620
    24.4600       590
    24.5200       562
    24.5800       578
    24.6400       652
    24.7000       650
    24.7600       614
    24.8200       604
    24.8800       622
    24.9400       644
    25.0000       602
    25.0600       570
    25.1200       656
    25.1800       610
    25.2400       628
    25.3000       578
    25.3600       640
    25.4200       592
    25.4800       628
    25.5400       580
    25.6000       594
    25.6600       626
    25.7200       606
    25.7800       590
    25.8400       618
    25.9000       574
    25.9600       558
    26.0200       550
    26.0800       578
    26.1400       580
    26.2000       586
    26.2600       566
    26.3200       556
    26.3800       576
    26.4400       604
    26.5000       570
    26.5600       588
    26.6200       574
    26.6800       556
    26.7400       574
    26.8000       534
    26.8600       576
    26.9200       580
    26.9800       550
    27.0400       606
    27.1000       580
    27.1600       538
    27.2200       602
    27.2800       590
    27.3400       592
    27.4000       598
    27.4600       562
    27.5200       578
    27.5800       568
    27.6400       592
    27.7000       548
    27.7600       564
    27.8200       596
    27.8800       546
    27.9400       530
    28.0000       588
    28.0600       612
    28.1200       546
    28.1800       564
    28.2400       566
    28.3000       552
    28.3600       620
    28.4200       590
    28.4800       578
    28.5400       540
    28.6000       550
    28.6600       586
    28.7200       592
    28.7800       576
    28.8400       570
    28.9000       546
    28.9600       578
    29.0200       542
    29.0800       598
    29.1400       572
    29.2000       568
    29.2600       576
    29.3200       594
    29.3800       576
    29.4400       512
    29.5000       588
    29.5600       544
    29.6200       604
    29.6800       576
    29.7400       546
    29.8000       588
    29.8600       542
    29.9200       576
    29.9800       514
    30.0400       572
    30.1000       542
    30.1600       590
    30.2200       558
    30.2800       532
    30.3400       528
    30.4000       566
    30.4600       606
    30.5200       572
    30.5800       574
    30.6400       600
    30.7000       536
    30.7600       552
    30.8200       530
    30.8800       582
    30.9400       564
    31.0000       514
    31.0600       552
    31.1200       544
    31.1800       524
    31.2400       512
    31.3000       558
    31.3600       580
    31.4200       534
    31.4800       588
    31.5400       556
    31.6000       552
    31.6600       548
    31.7200       518
    31.7800       546
    31.8400       542
    31.9000       560
    31.9600       562
    32.0200       526
    32.0800       578
    32.1400       592
    32.2000       518
    32.2600       570
    32.3200       502
    32.3800       584
    32.4400       558
    32.5000       474
    32.5600       520
    32.6200       520
    32.6800       520
    32.7400       524
    32.8000       540
    32.8600       564
    32.9200       576
    32.9800       556
    33.0400       490
    33.1000       526
    33.1600       512
    33.2200       542
    33.2800       568
    33.3400       526
    33.4000       564
    33.4600       530
    33.5200       548
    33.5800       572
    33.6400       568
    33.7000       560
    33.7600       532
    33.8200       534
    33.8800       514
    33.9400       520
    34.0000       520
    34.0600       556
    34.1200       526
    34.1800       514
    34.2400       556
    34.3000       536
    34.3600       554
    34.4200       532
    34.4800       548
    34.5400       542
    34.6000       536
    34.6600       524
    34.7200       504
    34.7800       560
    34.8400       510
    34.9000       528
    34.9600       532
    35.0200       496
    35.0800       572
    35.1400       510
    35.2000       494
    35.2600       532
    35.3200       512
    35.3800       458
    35.4400       536
    35.5000       514
    35.5600       520
    35.6200       486
    35.6800       524
    35.7400       518
    35.8000       554
    35.8600       522
    35.9200       516
    35.9800       538
    36.0400       486
    36.1000       522
    36.1600       500
    36.2200       524
    36.2800       550
    36.3400       516
    36.4000       530
    36.4600       552
    36.5200       558
    36.5800       558
    36.6400       594
    36.7000       576
    36.7600       576
    36.8200       582
    36.8800       542
    36.9400       528
    37.0000       478
    37.0600       576
    37.1200       546
    37.1800       566
    37.2400       514
    37.3000       492
    37.3600       532
    37.4200       538
    37.4800       522
    37.5400       522
    37.6000       544
    37.6600       546
    37.7200       512
    37.7800       560
    37.8400       536
    37.9000       542
    37.9600       492
    38.0200       520
    38.0800       544
    38.1400       528
    38.2000       504
    38.2600       510
    38.3200       514
    38.3800       544
    38.4400       520
    38.5000       528
    38.5600       552
    38.6200       542
    38.6800       534
    38.7400       524
    38.8000       450
    38.8600       546
    38.9200       524
    38.9800       534
    39.0400       502
    39.1000       540
    39.1600       534
    39.2200       470
    39.2800       552
    39.3400       516
    39.4000       478
    39.4600       496
    39.5200       488
    39.5800       542
    39.6400       516
    39.7000       518
    39.7600       546
    39.8200       496
    39.8800       522
    39.9400       504
    40.0000       476
    40.0600       520
    40.1200       514
    40.1800       504
    40.2400       482
    40.3000       488
    40.3600       498
    40.4200       538
    40.4800       534
    40.5400       500
    40.6000       566
    40.6600       492
    40.7200       478
    40.7800       488
    40.8400       508
    40.9000       486
    40.9600       458
    41.0200       528
    41.0800       538
    41.1400       572
    41.2000       502
    41.2600       528
    41.3200       492
    41.3800       534
    41.4400       498
    41.5000       498
    41.5600       552
    41.6200       480
    41.6800       498
    41.7400       554
    41.8000       468
    41.8600       500
    41.9200       502
    41.9800       550
    42.0400       492
    42.1000       516
    42.1600       526
    42.2200       482
    42.2800       524
    42.3400       496
    42.4000       512
    42.4600       546
    42.5200       528
    42.5800       484
    42.6400       512
    42.7000       500
    42.7600       542
    42.8200       494
    42.8800       566
    42.9400       518
    43.0000       506
    43.0600       552
    43.1200       500
    43.1800       500
    43.2400       494
    43.3000       508
    43.3600       492
    43.4200       498
    43.4800       506
    43.5400       510
    43.6000       514
    43.6600       464
    43.7200       490
    43.7800       536
    43.8400       538
    43.9000       492
    43.9600       520
    44.0200       530
    44.0800       454
    44.1400       498
    44.2000       484
    44.2600       518
    44.3200       464
    44.3800       512
    44.4400       502
    44.5000       484
    44.5600       474
    44.6200       512
    44.6800       520
    44.7400       518
    44.8000       506
    44.8600       498
    44.9200       512
    44.9800       512
    45.0400       518
    45.1000       540
    45.1600       480
    45.2200       478
    45.2800       516
    45.3400       482
    45.4000       492
    45.4600       526
    45.5200       504
    45.5800       494
    45.6400       496
    45.7000       478
    45.7600       504
    45.8200       504
    45.8800       514
    45.9400       468
    46.0000       494
    46.0600       498
    46.1200       532
    46.1800       500
    46.2400       504
    46.3000       498
    46.3600       512
    46.4200       500
    46.4800       478
    46.5400       442
    46.6000       524
    46.6600       474
    46.7200       488
    46.7800       496
    46.8400       498
    46.9000       506
    46.9600       514
    47.0200       462
    47.0800       478
    47.1400       502
    47.2000       454
    47.2600       458
    47.3200       442
    47.3800       514
    47.4400       464
    47.5000       478
    47.5600       430
    47.6200       476
    47.6800       494
    47.7400       502
    47.8000       468
    47.8600       462
    47.9200       486
    47.9800       466
    48.0400       448
    48.1000       508
    48.1600       474
    48.2200       500
    48.2800       478
    48.3400       454
    48.4000       488
    48.4600       508
    48.5200       486
    48.5800       496
    48.6400       474
    48.7000       490
    48.7600       498
    48.8200       504
    48.8800       448
    48.9400       442
    49.0000       478
    49.0600       454
    49.1200       494
    49.1800       468
    49.2400       490
    49.3000       410
    49.3600       458
    49.4200       494
    49.4800       468
    49.5400       516
    49.6000       480
    49.6600       480
    49.7200       432
    49.7800       466
    49.8400       462
    49.9000       476
    49.9600       442
    50.0200       482
    50.0800       520
    50.1400       450
    50.2000       448
    50.2600       484
    50.3200       490
    50.3800       484
    50.4400       466
    50.5000       454
    50.5600       468
    50.6200       506
    50.6800       500
    50.7400       464
    50.8000       444
    50.8600       490
    50.9200       470
    50.9800       436
    51.0400       458
    51.1000       448
    51.1600       480
    51.2200       436
    51.2800       492
    51.3400       506
    51.4000       442
    51.4600       462
    51.5200       486
    51.5800       498
    51.6400       478
    51.7000       450
    51.7600       448
    51.8200       468
    51.8800       478
    51.9400       452
    52.0000       488
    52.0600       478
    52.1200       458
    52.1800       436
    52.2400       494
    52.3000       476
    52.3600       472
    52.4200       472
    52.4800       440
    52.5400       466
    52.6000       478
    52.6600       466
    52.7200       450
    52.7800       432
    52.8400       472
    52.9000       502
    52.9600       492
    53.0200       450
    53.0800       434
    53.1400       470
    53.2000       470
    53.2600       428
    53.3200       464
    53.3800       462
    53.4400       480
    53.5000       434
    53.5600       458
    53.6200       484
    53.6800       458
    53.7400       482
    53.8000       434
    53.8600       436
    53.9200       434
    53.9800       474
    54.0400       434
    54.1000       456
    54.1600       490
    54.2200       450
    54.2800       492
    54.3400       470
    54.4000       492
    54.4600       464
    54.5200       492
    54.5800       460
    54.6400       466
    54.7000       434
    54.7600       454
    54.8200       502
    54.8800       454
    54.9400       462
    55.0000       474
    55.0600       496
    55.1200       472
    55.1800       450
    55.2400       480
    55.3000       478
    55.3600       454
    55.4200       440
    55.4800       488
    55.5400       474
    55.6000       486
    55.6600       452
    55.7200       462
    55.7800       460
    55.8400       494
    55.9000       462
    55.9600       432
    56.0200       436
    56.0800       444
    56.1400       460
    56.2000       468
    56.2600       432
    56.3200       424
    56.3800       466
    56.4400       464
    56.5000       458
    56.5600       474
    56.6200       446
    56.6800       432
    56.7400       470
    56.8000       494
    56.8600       448
    56.9200       458
    56.9800       444
    57.0400       458
    57.1000       486
    57.1600       506
    57.2200       466
    57.2800       460
    57.3400       440
    57.4000       460
    57.4600       486
    57.5200       442
    57.5800       480
    57.6400       496
    57.7000       440
    57.7600       450
    57.8200       474
    57.8800       416
    57.9400       436
    58.0000       490
    58.0600       462
    58.1200       448
    58.1800       472
    58.2400       464
    58.3000       428
    58.3600       474
    58.4200       460
    58.4800       444
    58.5400       460
    58.6000       488
    58.6600       458
    58.7200       468
    58.7800       436
    58.8400       456
    58.9000       426
    58.9600       440
    59.0200       458
    59.0800       464
    59.1400       412
    59.2000       458
    59.2600       446
    59.3200       460
    59.3800       444
    59.4400       400
    59.5000       460
    59.5600       452
    59.6200       464
    59.6800       438
    59.7400       416
    59.8000       416
    59.8600       444
    59.9200       458
    59.9800       492
    60.0400       472
    60.1000       440
    60.1600       444
    60.2200       446
    60.2800       438
    60.3400       426
    60.4000       440
    60.4600       458
    60.5200       460
    60.5800       450
    60.6400       428
    60.7000       460
    60.7600       412
    60.8200       462
    60.8800       440
    60.9400       460
    61.0000       458
    61.0600       432
    61.1200       446
    61.1800       430
    61.2400       476
    61.3000       464
    61.3600       430
    61.4200       432
    61.4800       474
    61.5400       462
    61.6000       438
    61.6600       442
    61.7200       426
    61.7800       464
    61.8400       426
    61.9000       462
    61.9600       440
    62.0200       426
    62.0800       448
    62.1400       490
    62.2000       478
    62.2600       466
    62.3200       400
    62.3800       466
    62.4400       436
    62.5000       414
    62.5600       428
    62.6200       426
    62.6800       400
    62.7400       448
    62.8000       478
    62.8600       452
    62.9200       478
    62.9800       420
    63.0400       446
    63.1000       398
    63.1600       426
    63.2200       450
    63.2800       430
    63.3400       398
    63.4000       450
    63.4600       470
    63.5200       432
    63.5800       404
    63.6400       406
    63.7000       432
    63.7600       440
    63.8200       472
    63.8800       454
    63.9400       438
    64.0000       462
    64.0600       450
    64.1200       448
    64.1800       492
    64.2400       442
    64.3000       462
    64.3600       478
    64.4200       424
    64.4800       436
    64.5400       484
    64.6000       442
    64.6600       460
    64.7200       424
    64.7800       426
    64.8400       412
    64.9000       446
    64.9600       482
    65.0200       416
    65.0800       428
    65.1400       432
    65.2000       436
    65.2600       440
    65.3200       418
    65.3800       444
    65.4400       430
    65.5000       458
    65.5600       436
    65.6200       450
    65.6800       454
    65.7400       476
    65.8000       452
    65.8600       466
    65.9200       440
    65.9800       506
    66.0400       482
    66.1000       490
    66.1600       450
    66.2200       436
    66.2800       474
    66.3400       504
    66.4000       416
    66.4600       452
    66.5200       446
    66.5800       478
    66.6400       476
    66.7000       426
    66.7600       440
    66.8200       434
    66.8800       468
    66.9400       412
    67.0000       436
    67.0600       382
    67.1200       454
    67.1800       454
    67.2400       442
    67.3000       442
    67.3600       468
    67.4200       426
    67.4800       438
    67.5400       414
    67.6000       454
    67.6600       440
    67.7200       422
    67.7800       390
    67.8400       470
    67.9000       466
    67.9600       464
    68.0200       406
    68.0800       422
    68.1400       446
    68.2000       420
    68.2600       436
    68.3200       454
    68.3800       434
    68.4400       430
    68.5000       410
    68.5600       432
    68.6200       444
    68.6800       404
    68.7400       434
    68.8000       414
    68.8600       438
    68.9200       404
    68.9800       486
    69.0400       472
    69.1000       400
    69.1600       432
    69.2200       406
    69.2800       444
    69.3400       388
    69.4000       424
    69.4600       444
    69.5200       404
    69.5800       406
    69.6400       442
    69.7000       422
    69.7600       434
    69.8200       432
    69.8800       410
    69.9400       406
    70.0000       424